File: nimh_batttery_charge/csv/nimh8.csv
iMax B6 mini;Outlet A
Time [hh:mm:ss.SSS];Voltage [V];Current [A];Capacity [mAh];Temperature Ext [°C];Temperature Int [°C];BatteryRi [m?]
00:00:00.000;5.14;0.23;0;0.0;38.0;0.00
00:00:08.000;5.20;0.30;0;0.0;37.0;0.00
00:00:16.000;5.20;0.30;0;0.0;37.0;0.00
00:00:24.000;5.19;0.30;0;0.0;37.0;0.00
00:00:32.000;5.19;0.30;0;0.0;37.0;0.00
00:00:40.000;5.19;0.31;1;0.0;37.0;0.00
00:00:48.000;5.18;0.30;1;0.0;37.0;0.00
00:00:56.000;5.18;0.31;1;0.0;37.0;0.00
00:01:04.000;5.18;0.31;1;0.0;37.0;0.00
00:01:12.000;5.18;0.30;1;0.0;37.0;0.00
00:01:20.000;5.18;0.31;2;0.0;37.0;0.00
00:01:28.000;5.18;0.32;2;0.0;37.0;0.00
00:01:36.000;5.18;0.32;2;0.0;37.0;0.00
00:01:44.000;5.17;0.31;2;0.0;37.0;0.00
00:01:52.000;5.17;0.31;3;0.0;37.0;0.00
00:02:00.000;5.17;0.31;3;0.0;37.0;0.00
00:02:08.000;5.17;0.32;3;0.0;37.0;0.00
00:02:16.000;5.17;0.30;3;0.0;37.0;0.00
00:02:24.000;5.17;0.31;3;0.0;37.0;0.00
00:02:32.000;5.17;0.31;4;0.0;37.0;0.00
00:02:40.000;5.17;0.30;4;0.0;37.0;0.00
00:02:48.000;5.16;0.30;4;0.0;37.0;0.00
00:02:56.000;5.16;0.30;4;0.0;37.0;0.00
00:03:04.000;5.16;0.30;4;0.0;37.0;0.00
00:03:12.000;5.16;0.30;5;0.0;36.0;0.00
00:03:20.000;5.16;0.30;5;0.0;36.0;0.00
00:03:28.000;5.16;0.31;5;0.0;36.0;0.00
00:03:36.000;5.16;0.31;5;0.0;36.0;0.00
00:03:44.000;5.16;0.30;5;0.0;36.0;0.00
00:03:52.000;5.16;0.30;6;0.0;36.0;0.00
00:04:00.000;5.15;0.30;7;0.0;36.0;0.00
00:04:08.000;5.15;0.30;7;0.0;36.0;0.00
00:04:16.000;5.15;0.30;8;0.0;36.0;0.00
00:04:24.000;5.14;0.31;9;0.0;36.0;0.00
00:04:32.000;5.14;0.30;9;0.0;36.0;0.00
00:04:40.000;5.14;0.30;10;0.0;36.0;0.00
00:04:48.000;5.14;0.30;11;0.0;36.0;0.00
00:04:56.000;5.13;0.30;11;0.0;36.0;0.00
00:05:04.000;5.14;0.30;12;0.0;36.0;0.00
00:05:12.000;5.14;0.31;13;0.0;36.0;0.00
00:05:20.000;5.14;0.30;13;0.0;36.0;0.00
00:05:28.000;5.14;0.30;14;0.0;36.0;0.00
00:05:36.000;5.14;0.31;15;0.0;36.0;0.00
00:05:44.000;5.14;0.30;15;0.0;36.0;0.00
00:05:52.000;5.14;0.32;16;0.0;35.0;0.00
00:06:00.000;5.13;0.30;17;0.0;35.0;0.00
00:06:08.000;5.13;0.31;17;0.0;35.0;0.00
00:06:16.000;5.13;0.31;18;0.0;35.0;0.00
00:06:24.000;5.13;0.31;19;0.0;35.0;0.00
00:06:32.000;5.13;0.30;19;0.0;35.0;0.00
00:06:40.000;5.13;0.30;20;0.0;35.0;0.00
00:06:48.000;5.13;0.30;21;0.0;35.0;0.00
00:06:56.000;5.12;0.30;21;0.0;35.0;0.00
00:07:04.000;5.12;0.30;22;0.0;35.0;0.00
00:07:12.000;5.12;0.30;23;0.0;35.0;0.00
00:07:20.000;5.12;0.30;23;0.0;35.0;0.00
00:07:28.000;5.12;0.30;24;0.0;35.0;0.00
00:07:36.000;5.12;0.30;25;0.0;35.0;0.00
00:07:44.000;5.11;0.31;25;0.0;35.0;0.00
00:07:52.000;5.11;0.30;26;0.0;35.0;0.00
00:08:00.000;5.11;0.30;27;0.0;35.0;0.00
00:08:08.000;5.11;0.30;27;0.0;35.0;0.00
00:08:16.000;5.11;0.30;28;0.0;35.0;0.00
00:08:24.000;5.11;0.30;29;0.0;35.0;0.00
00:08:32.000;5.11;0.32;29;0.0;35.0;0.00
00:08:40.000;5.10;0.30;30;0.0;35.0;0.00
00:08:48.000;5.10;0.30;31;0.0;35.0;0.00
00:08:56.000;5.10;0.31;31;0.0;35.0;0.00
00:09:04.000;5.10;0.30;32;0.0;35.0;0.00
00:09:12.000;5.10;0.30;33;0.0;35.0;0.00
00:09:20.000;5.10;0.31;33;0.0;35.0;0.00
00:09:28.000;5.09;0.31;34;0.0;35.0;0.00
00:09:36.000;5.09;0.30;35;0.0;35.0;0.00
00:09:44.000;5.09;0.31;35;0.0;35.0;0.00
00:09:52.000;5.09;0.30;36;0.0;35.0;0.00
00:10:00.000;5.09;0.30;37;0.0;35.0;0.00
00:10:08.000;5.09;0.30;37;0.0;35.0;0.00
00:10:16.000;5.09;0.30;38;0.0;35.0;0.00
00:10:24.000;5.08;0.30;39;0.0;35.0;0.00
00:10:32.000;5.08;0.31;40;0.0;35.0;0.00
00:10:40.000;5.08;0.30;40;0.0;35.0;0.00
00:10:48.000;5.08;0.30;41;0.0;35.0;0.00
00:10:56.000;5.08;0.31;42;0.0;35.0;0.00
00:11:04.000;5.08;0.30;42;0.0;35.0;0.00
00:11:12.000;5.08;0.30;43;0.0;35.0;0.00
00:11:20.000;5.08;0.31;43;0.0;35.0;0.00
00:11:28.000;5.07;0.30;44;0.0;35.0;0.00
00:11:36.000;5.07;0.31;45;0.0;35.0;0.00
00:11:44.000;5.07;0.30;45;0.0;35.0;0.00
00:11:52.000;5.07;0.30;46;0.0;35.0;0.00
00:12:00.000;5.07;0.30;47;0.0;35.0;0.00
00:12:08.000;5.07;0.30;48;0.0;36.0;0.00
00:12:16.000;5.07;0.30;48;0.0;36.0;0.00
00:12:24.000;5.07;0.30;49;0.0;36.0;0.00
00:12:32.000;5.06;0.32;50;0.0;36.0;0.00
00:12:40.000;5.06;0.31;50;0.0;36.0;0.00
00:12:48.000;5.06;0.30;51;0.0;36.0;0.00
00:12:56.000;5.06;0.30;52;0.0;36.0;0.00
00:13:04.000;5.06;0.30;52;0.0;36.0;0.00
00:13:12.000;5.06;0.30;53;0.0;36.0;0.00
00:13:20.000;5.06;0.32;54;0.0;36.0;0.00
00:13:28.000;5.05;0.30;54;0.0;36.0;0.00
00:13:36.000;5.05;0.31;55;0.0;36.0;0.00
00:13:44.000;5.05;0.31;56;0.0;36.0;0.00
00:13:52.000;5.05;0.30;56;0.0;36.0;0.00
00:14:00.000;5.05;0.30;57;0.0;36.0;0.00
00:14:08.000;5.05;0.31;58;0.0;36.0;0.00
00:14:16.000;5.05;0.30;58;0.0;36.0;0.00
00:14:24.000;5.05;0.31;59;0.0;36.0;0.00
00:14:32.000;5.04;0.31;60;0.0;36.0;0.00
00:14:40.000;5.04;0.30;60;0.0;36.0;0.00
00:14:48.000;5.04;0.30;61;0.0;36.0;0.00
00:14:56.000;5.04;0.30;62;0.0;36.0;0.00
00:15:04.000;5.04;0.30;62;0.0;36.0;0.00
00:15:12.000;5.04;0.31;63;0.0;36.0;0.00
00:15:20.000;5.04;0.31;64;0.0;36.0;0.00
00:15:28.000;5.04;0.31;64;0.0;36.0;0.00
00:15:36.000;5.04;0.30;65;0.0;36.0;0.00
00:15:44.000;5.04;0.30;66;0.0;36.0;0.00
00:15:52.000;5.04;0.30;67;0.0;36.0;0.00
00:16:00.000;5.03;0.30;67;0.0;36.0;0.00
00:16:08.000;5.03;0.30;68;0.0;36.0;0.00
00:16:16.000;5.03;0.30;68;0.0;36.0;0.00
00:16:24.000;5.03;0.32;69;0.0;36.0;0.00
00:16:32.000;5.03;0.30;70;0.0;36.0;0.00
00:16:40.000;5.03;0.30;70;0.0;36.0;0.00
00:16:48.000;5.03;0.31;71;0.0;36.0;0.00
00:16:56.000;5.03;0.30;72;0.0;36.0;0.00
00:17:04.000;5.03;0.30;72;0.0;36.0;0.00
00:17:12.000;5.03;0.30;73;0.0;36.0;0.00
00:17:20.000;5.02;0.31;74;0.0;36.0;0.00
00:17:28.000;5.02;0.30;75;0.0;36.0;0.00
00:17:36.000;5.02;0.30;75;0.0;36.0;0.00
00:17:44.000;5.02;0.31;76;0.0;36.0;0.00
00:17:52.000;5.02;0.30;77;0.0;36.0;0.00
00:18:00.000;5.02;0.31;77;0.0;36.0;0.00
00:18:08.000;5.02;0.32;78;0.0;36.0;0.00
00:18:16.000;5.02;0.30;79;0.0;36.0;0.00
00:18:24.000;5.02;0.30;79;0.0;36.0;0.00
00:18:32.000;5.01;0.30;80;0.0;36.0;0.00
00:18:40.000;5.01;0.30;81;0.0;36.0;0.00
00:18:48.000;5.01;0.30;81;0.0;36.0;0.00
00:18:56.000;5.01;0.30;82;0.0;36.0;0.00
00:19:04.000;5.01;0.31;83;0.0;36.0;0.00
00:19:12.000;5.01;0.31;83;0.0;36.0;0.00
00:19:20.000;5.01;0.31;84;0.0;36.0;0.00
00:19:28.000;5.01;0.30;85;0.0;36.0;0.00
00:19:36.000;5.01;0.30;85;0.0;36.0;0.00
00:19:44.000;5.01;0.30;86;0.0;36.0;0.00
00:19:52.000;5.01;0.31;87;0.0;36.0;0.00
00:20:00.000;5.00;0.31;87;0.0;36.0;0.00
00:20:08.000;5.00;0.30;88;0.0;36.0;0.00
00:20:16.000;5.00;0.30;89;0.0;36.0;0.00
00:20:24.000;5.00;0.30;89;0.0;36.0;0.00
00:20:32.000;5.00;0.32;90;0.0;36.0;0.00
00:20:40.000;5.00;0.30;91;0.0;36.0;0.00
00:20:48.000;5.00;0.30;91;0.0;36.0;0.00
00:20:56.000;5.00;0.30;92;0.0;36.0;0.00
00:21:04.000;5.00;0.31;93;0.0;36.0;0.00
00:21:12.000;5.00;0.30;93;0.0;36.0;0.00
00:21:20.000;5.00;0.32;94;0.0;36.0;0.00
00:21:28.000;4.99;0.31;95;0.0;36.0;0.00
00:21:36.000;4.99;0.30;96;0.0;36.0;0.00
00:21:44.000;4.99;0.30;96;0.0;36.0;0.00
00:21:52.000;4.99;0.31;97;0.0;36.0;0.00
00:22:00.000;4.99;0.31;97;0.0;36.0;0.00
00:22:08.000;4.99;0.31;98;0.0;36.0;0.00
00:22:16.000;4.99;0.30;99;0.0;36.0;0.00
00:22:24.000;4.99;0.30;99;0.0;36.0;0.00
00:22:32.000;4.99;0.32;100;0.0;36.0;0.00
00:22:40.000;4.99;0.30;101;0.0;36.0;0.00
00:22:48.000;4.99;0.32;101;0.0;36.0;0.00
00:22:56.000;4.99;0.30;102;0.0;36.0;0.00
00:23:04.000;4.98;0.30;103;0.0;36.0;0.00
00:23:12.000;4.98;0.30;103;0.0;36.0;0.00
00:23:20.000;4.98;0.31;104;0.0;36.0;0.00
00:23:28.000;4.98;0.30;105;0.0;36.0;0.00
00:23:36.000;4.98;0.30;105;0.0;36.0;0.00
00:23:44.000;4.98;0.30;106;0.0;36.0;0.00
00:23:52.000;4.98;0.30;107;0.0;36.0;0.00
00:24:00.000;4.98;0.31;107;0.0;36.0;0.00
00:24:08.000;4.98;0.31;108;0.0;36.0;0.00
00:24:16.000;4.98;0.30;109;0.0;36.0;0.00
00:24:24.000;4.97;0.31;109;0.0;36.0;0.00
00:24:32.000;4.97;0.30;110;0.0;36.0;0.00
00:24:40.000;4.97;0.30;111;0.0;36.0;0.00
00:24:48.000;4.97;0.30;112;0.0;36.0;0.00
00:24:56.000;4.97;0.30;112;0.0;36.0;0.00
00:25:04.000;4.97;0.30;113;0.0;36.0;0.00
00:25:12.000;4.97;0.30;114;0.0;36.0;0.00
00:25:20.000;4.97;0.30;114;0.0;36.0;0.00
00:25:28.000;4.97;0.31;115;0.0;36.0;0.00
00:25:36.000;4.97;0.31;116;0.0;36.0;0.00
00:25:44.000;4.97;0.30;116;0.0;36.0;0.00
00:25:52.000;4.97;0.30;117;0.0;36.0;0.00
00:26:00.000;4.96;0.31;118;0.0;36.0;0.00
00:26:08.000;4.96;0.30;118;0.0;36.0;0.00
00:26:16.000;4.96;0.30;119;0.0;36.0;0.00
00:26:24.000;4.96;0.30;120;0.0;36.0;0.00
00:26:32.000;4.96;0.30;120;0.0;36.0;0.00
00:26:40.000;4.96;0.30;121;0.0;36.0;0.00
00:26:48.000;4.96;0.30;122;0.0;36.0;0.00
00:26:56.000;4.96;0.31;122;0.0;36.0;0.00
00:27:04.000;4.96;0.30;123;0.0;36.0;0.00
00:27:12.000;4.96;0.31;124;0.0;36.0;0.00
00:27:20.000;4.96;0.30;124;0.0;36.0;0.00
00:27:28.000;4.96;0.30;125;0.0;36.0;0.00
00:27:36.000;4.96;0.31;126;0.0;36.0;0.00
00:27:44.000;4.95;0.30;126;0.0;36.0;0.00
00:27:52.000;4.95;0.31;127;0.0;36.0;0.00
00:28:00.000;4.95;0.30;128;0.0;36.0;0.00
00:28:08.000;4.95;0.30;128;0.0;36.0;0.00
00:28:16.000;4.95;0.30;129;0.0;36.0;0.00
00:28:24.000;4.95;0.30;130;0.0;36.0;0.00
00:28:32.000;4.95;0.31;130;0.0;36.0;0.00
00:28:40.000;4.95;0.31;131;0.0;36.0;0.00
00:28:48.000;4.95;0.30;132;0.0;36.0;0.00
00:28:56.000;4.95;0.30;132;0.0;36.0;0.00
00:29:04.000;4.95;0.30;133;0.0;36.0;0.00
00:29:12.000;4.95;0.32;134;0.0;36.0;0.00
00:29:20.000;4.95;0.30;134;0.0;36.0;0.00
00:29:28.000;4.95;0.30;135;0.0;36.0;0.00
00:29:36.000;4.94;0.31;136;0.0;36.0;0.00
00:29:44.000;4.94;0.30;136;0.0;36.0;0.00
00:29:52.000;4.94;0.30;137;0.0;36.0;0.00
00:30:00.000;4.94;0.31;138;0.0;36.0;0.00
00:30:08.000;4.94;0.31;138;0.0;36.0;0.00
00:30:16.000;4.94;0.31;139;0.0;36.0;0.00
00:30:24.000;4.94;0.30;140;0.0;36.0;0.00
00:30:32.000;4.94;0.31;140;0.0;36.0;0.00
00:30:40.000;4.94;0.30;141;0.0;36.0;0.00
00:30:48.000;4.94;0.30;142;0.0;36.0;0.00
00:30:56.000;4.94;0.30;142;0.0;36.0;0.00
00:31:04.000;4.94;0.30;143;0.0;36.0;0.00
00:31:12.000;4.94;0.30;144;0.0;36.0;0.00
00:31:20.000;4.94;0.30;144;0.0;36.0;0.00
00:31:28.000;4.93;0.30;145;0.0;36.0;0.00
00:31:36.000;4.93;0.30;146;0.0;36.0;0.00
00:31:44.000;4.93;0.30;147;0.0;36.0;0.00
00:31:52.000;4.93;0.31;147;0.0;36.0;0.00
00:32:00.000;4.93;0.32;148;0.0;36.0;0.00
00:32:08.000;4.93;0.30;149;0.0;36.0;0.00
00:32:16.000;4.93;0.30;149;0.0;36.0;0.00
00:32:24.000;4.93;0.30;150;0.0;36.0;0.00
00:32:32.000;4.93;0.31;150;0.0;36.0;0.00
00:32:40.000;4.93;0.30;151;0.0;36.0;0.00
00:32:48.000;4.93;0.30;152;0.0;36.0;0.00
00:32:56.000;4.93;0.32;153;0.0;36.0;0.00
00:33:04.000;4.93;0.31;153;0.0;36.0;0.00
00:33:12.000;4.93;0.30;154;0.0;36.0;0.00
00:33:20.000;4.93;0.31;155;0.0;36.0;0.00
00:33:28.000;4.92;0.31;155;0.0;36.0;0.00
00:33:36.000;4.92;0.30;156;0.0;36.0;0.00
00:33:44.000;4.92;0.32;157;0.0;36.0;0.00
00:33:52.000;4.92;0.30;157;0.0;36.0;0.00
00:34:00.000;4.92;0.30;158;0.0;37.0;0.00
00:34:08.000;4.92;0.30;159;0.0;37.0;0.00
00:34:16.000;4.92;0.32;159;0.0;37.0;0.00
00:34:24.000;4.92;0.30;160;0.0;37.0;0.00
00:34:32.000;4.92;0.30;161;0.0;37.0;0.00
00:34:40.000;4.92;0.30;161;0.0;37.0;0.00
00:34:48.000;4.92;0.31;162;0.0;37.0;0.00
00:34:56.000;4.92;0.30;163;0.0;37.0;0.00
00:35:04.000;4.92;0.30;163;0.0;37.0;0.00
00:35:12.000;4.92;0.30;164;0.0;37.0;0.00
00:35:20.000;4.92;0.31;165;0.0;37.0;0.00
00:35:28.000;4.92;0.30;165;0.0;37.0;0.00
00:35:36.000;4.92;0.30;166;0.0;37.0;0.00
00:35:44.000;4.91;0.30;167;0.0;37.0;0.00
00:35:52.000;4.91;0.30;167;0.0;37.0;0.00
00:36:00.000;4.91;0.30;168;0.0;37.0;0.00
00:36:08.000;4.91;0.31;169;0.0;37.0;0.00
00:36:16.000;4.91;0.30;169;0.0;37.0;0.00
00:36:24.000;4.91;0.31;170;0.0;37.0;0.00
00:36:32.000;4.91;0.31;171;0.0;37.0;0.00
00:36:40.000;4.91;0.30;171;0.0;37.0;0.00
00:36:48.000;4.91;0.30;172;0.0;37.0;0.00
00:36:56.000;4.91;0.31;173;0.0;37.0;0.00
00:37:04.000;4.91;0.30;173;0.0;37.0;0.00
00:37:12.000;4.91;0.30;174;0.0;37.0;0.00
00:37:20.000;4.91;0.30;175;0.0;37.0;0.00
00:37:28.000;4.91;0.31;175;0.0;37.0;0.00
00:37:36.000;4.91;0.31;176;0.0;37.0;0.00
00:37:44.000;4.91;0.30;177;0.0;37.0;0.00
00:37:52.000;4.90;0.31;177;0.0;37.0;0.00
00:38:00.000;4.90;0.30;178;0.0;37.0;0.00
00:38:08.000;4.90;0.31;179;0.0;37.0;0.00
00:38:16.000;4.90;0.30;179;0.0;37.0;0.00
00:38:24.000;4.90;0.31;180;0.0;37.0;0.00
00:38:32.000;4.90;0.30;181;0.0;37.0;0.00
00:38:40.000;4.90;0.31;181;0.0;37.0;0.00
00:38:48.000;4.90;0.30;182;0.0;37.0;0.00
00:38:56.000;4.90;0.30;183;0.0;37.0;0.00
00:39:04.000;4.90;0.30;183;0.0;37.0;0.00
00:39:12.000;4.90;0.31;184;0.0;37.0;0.00
00:39:20.000;4.90;0.31;185;0.0;37.0;0.00
00:39:28.000;4.90;0.31;185;0.0;37.0;0.00
00:39:36.000;4.90;0.31;186;0.0;37.0;0.00
00:39:44.000;4.90;0.30;187;0.0;37.0;0.00
00:39:52.000;4.89;0.31;188;0.0;37.0;0.00
00:40:00.000;4.89;0.30;188;0.0;37.0;0.00
00:40:08.000;4.89;0.30;189;0.0;37.0;0.00
00:40:16.000;4.89;0.30;190;0.0;37.0;0.00
00:40:24.000;4.89;0.30;190;0.0;37.0;0.00
00:40:32.000;4.89;0.30;191;0.0;37.0;0.00
00:40:40.000;4.89;0.31;192;0.0;37.0;0.00
00:40:48.000;4.89;0.30;192;0.0;37.0;0.00
00:40:56.000;4.89;0.30;193;0.0;37.0;0.00
00:41:04.000;4.89;0.31;194;0.0;37.0;0.00
00:41:12.000;4.89;0.30;194;0.0;37.0;0.00
00:41:20.000;4.89;0.31;195;0.0;37.0;0.00
00:41:28.000;4.89;0.30;196;0.0;37.0;0.00
00:41:36.000;4.89;0.31;196;0.0;37.0;0.00
00:41:44.000;4.89;0.32;197;0.0;37.0;0.00
00:41:52.000;4.89;0.30;198;0.0;37.0;0.00
00:42:00.000;4.89;0.30;198;0.0;37.0;0.00
00:42:08.000;4.89;0.30;199;0.0;37.0;0.00
00:42:16.000;4.88;0.30;200;0.0;37.0;0.00
00:42:24.000;4.88;0.30;200;0.0;37.0;0.00
00:42:32.000;4.88;0.31;201;0.0;37.0;0.00
00:42:40.000;4.88;0.30;202;0.0;37.0;0.00
00:42:48.000;4.88;0.31;202;0.0;37.0;0.00
00:42:56.000;4.88;0.31;203;0.0;37.0;0.00
00:43:04.000;4.88;0.31;204;0.0;37.0;0.00
00:43:12.000;4.88;0.30;204;0.0;37.0;0.00
00:43:20.000;4.88;0.30;205;0.0;37.0;0.00
00:43:28.000;4.88;0.31;206;0.0;37.0;0.00
00:43:36.000;4.88;0.30;206;0.0;37.0;0.00
00:43:44.000;4.88;0.30;207;0.0;37.0;0.00
00:43:52.000;4.88;0.30;208;0.0;37.0;0.00
00:44:00.000;4.88;0.30;208;0.0;37.0;0.00
00:44:08.000;4.88;0.30;209;0.0;37.0;0.00
00:44:16.000;4.88;0.30;210;0.0;37.0;0.00
00:44:24.000;4.88;0.30;211;0.0;37.0;0.00
00:44:32.000;4.88;0.31;211;0.0;37.0;0.00
00:44:40.000;4.88;0.31;212;0.0;37.0;0.00
00:44:48.000;4.87;0.31;212;0.0;37.0;0.00
00:44:56.000;4.87;0.31;213;0.0;37.0;0.00
00:45:04.000;4.87;0.31;214;0.0;37.0;0.00
00:45:12.000;4.87;0.31;214;0.0;37.0;0.00
00:45:20.000;4.87;0.31;215;0.0;37.0;0.00
00:45:28.000;4.87;0.30;216;0.0;37.0;0.00
00:45:36.000;4.87;0.31;217;0.0;37.0;0.00
00:45:44.000;4.87;0.30;217;0.0;37.0;0.00
00:45:52.000;4.87;0.30;218;0.0;37.0;0.00
00:46:00.000;4.87;0.30;219;0.0;37.0;0.00
00:46:08.000;4.87;0.30;219;0.0;37.0;0.00
00:46:16.000;4.87;0.30;220;0.0;37.0;0.00
00:46:24.000;4.87;0.30;221;0.0;37.0;0.00
00:46:32.000;4.87;0.32;221;0.0;37.0;0.00
00:46:40.000;4.87;0.30;222;0.0;37.0;0.00
00:46:48.000;4.87;0.30;223;0.0;37.0;0.00
00:46:56.000;4.86;0.30;223;0.0;37.0;0.00
00:47:04.000;4.87;0.30;224;0.0;37.0;0.00
00:47:12.000;4.86;0.31;225;0.0;37.0;0.00
00:47:20.000;4.86;0.30;225;0.0;37.0;0.00
00:47:28.000;4.86;0.31;226;0.0;37.0;0.00
00:47:36.000;4.86;0.31;227;0.0;37.0;0.00
00:47:44.000;4.86;0.30;227;0.0;37.0;0.00
00:47:52.000;4.86;0.30;228;0.0;37.0;0.00
00:48:00.000;4.86;0.30;228;0.0;37.0;0.00
00:48:08.000;4.86;0.32;229;0.0;37.0;0.00
00:48:16.000;4.86;0.32;230;0.0;37.0;0.00
00:48:24.000;4.86;0.30;231;0.0;37.0;0.00
00:48:32.000;4.86;0.30;231;0.0;37.0;0.00
00:48:40.000;4.86;0.30;232;0.0;37.0;0.00
00:48:48.000;4.86;0.31;233;0.0;37.0;0.00
00:48:56.000;4.86;0.30;233;0.0;37.0;0.00
00:49:04.000;4.86;0.31;234;0.0;37.0;0.00
00:49:12.000;4.86;0.31;235;0.0;37.0;0.00
00:49:20.000;4.86;0.30;235;0.0;37.0;0.00
00:49:28.000;4.85;0.31;236;0.0;37.0;0.00
00:49:36.000;4.85;0.30;237;0.0;37.0;0.00
00:49:44.000;4.85;0.30;237;0.0;37.0;0.00
00:49:52.000;4.85;0.30;238;0.0;37.0;0.00
00:50:00.000;4.85;0.30;239;0.0;37.0;0.00
00:50:08.000;4.85;0.30;239;0.0;37.0;0.00
00:50:16.000;4.85;0.30;240;0.0;37.0;0.00
00:50:24.000;4.85;0.30;241;0.0;37.0;0.00
00:50:32.000;4.85;0.31;241;0.0;37.0;0.00
00:50:40.000;4.85;0.30;242;0.0;37.0;0.00
00:50:48.000;4.85;0.30;243;0.0;37.0;0.00
00:50:56.000;4.85;0.30;243;0.0;37.0;0.00
00:51:04.000;4.85;0.30;244;0.0;37.0;0.00
00:51:12.000;4.85;0.30;245;0.0;37.0;0.00
00:51:20.000;4.85;0.30;245;0.0;37.0;0.00
00:51:28.000;4.84;0.30;246;0.0;37.0;0.00
00:51:36.000;4.84;0.30;247;0.0;37.0;0.00
00:51:44.000;4.84;0.30;247;0.0;37.0;0.00
00:51:52.000;4.84;0.31;248;0.0;37.0;0.00
00:52:00.000;4.84;0.30;249;0.0;37.0;0.00
00:52:08.000;4.84;0.30;249;0.0;37.0;0.00
00:52:16.000;4.84;0.30;250;0.0;37.0;0.00
00:52:24.000;4.84;0.30;251;0.0;37.0;0.00
00:52:32.000;4.84;0.31;252;0.0;37.0;0.00
00:52:40.000;4.84;0.31;252;0.0;37.0;0.00
00:52:48.000;4.84;0.30;253;0.0;37.0;0.00
00:52:56.000;4.84;0.31;254;0.0;37.0;0.00
00:53:04.000;4.84;0.31;254;0.0;37.0;0.00
00:53:12.000;4.84;0.31;255;0.0;37.0;0.00
00:53:20.000;4.84;0.30;256;0.0;37.0;0.00
00:53:28.000;4.84;0.30;256;0.0;37.0;0.00
00:53:36.000;4.84;0.30;257;0.0;37.0;0.00
00:53:44.000;4.83;0.31;258;0.0;37.0;0.00
00:53:52.000;4.83;0.30;258;0.0;37.0;0.00
00:54:00.000;4.83;0.30;259;0.0;37.0;0.00
00:54:08.000;4.83;0.30;260;0.0;37.0;0.00
00:54:16.000;4.83;0.32;260;0.0;37.0;0.00
00:54:24.000;4.83;0.30;261;0.0;37.0;0.00
00:54:32.000;4.83;0.31;262;0.0;37.0;0.00
00:54:40.000;4.83;0.31;262;0.0;37.0;0.00
00:54:48.000;4.83;0.30;263;0.0;37.0;0.00
00:54:56.000;4.83;0.30;264;0.0;37.0;0.00
00:55:04.000;4.83;0.30;264;0.0;37.0;0.00
00:55:12.000;4.83;0.30;265;0.0;37.0;0.00
00:55:20.000;4.83;0.30;266;0.0;37.0;0.00
00:55:28.000;4.83;0.30;266;0.0;37.0;0.00
00:55:36.000;4.83;0.30;267;0.0;37.0;0.00
00:55:44.000;4.83;0.31;268;0.0;37.0;0.00
00:55:52.000;4.83;0.30;268;0.0;37.0;0.00
00:56:00.000;4.83;0.30;269;0.0;37.0;0.00
00:56:08.000;4.83;0.30;270;0.0;37.0;0.00
00:56:16.000;4.83;0.31;270;0.0;37.0;0.00
00:56:24.000;4.82;0.30;271;0.0;37.0;0.00
00:56:32.000;4.82;0.31;272;0.0;37.0;0.00
00:56:40.000;4.82;0.31;272;0.0;37.0;0.00
00:56:48.000;4.82;0.31;273;0.0;37.0;0.00
00:56:56.000;4.82;0.30;274;0.0;37.0;0.00
00:57:04.000;4.82;0.30;274;0.0;37.0;0.00
00:57:12.000;4.82;0.31;275;0.0;37.0;0.00
00:57:20.000;4.82;0.31;276;0.0;37.0;0.00
00:57:28.000;4.82;0.30;276;0.0;37.0;0.00
00:57:36.000;4.82;0.31;277;0.0;37.0;0.00
00:57:44.000;4.82;0.30;278;0.0;37.0;0.00
00:57:52.000;4.82;0.30;278;0.0;37.0;0.00
00:58:00.000;4.82;0.30;279;0.0;37.0;0.00
00:58:08.000;4.82;0.31;280;0.0;37.0;0.00
00:58:16.000;4.82;0.30;280;0.0;37.0;0.00
00:58:24.000;4.82;0.31;281;0.0;37.0;0.00
00:58:32.000;4.82;0.31;282;0.0;37.0;0.00
00:58:40.000;4.82;0.30;283;0.0;37.0;0.00
00:58:48.000;4.81;0.30;283;0.0;37.0;0.00
00:58:56.000;4.81;0.30;284;0.0;37.0;0.00
00:59:04.000;4.81;0.30;285;0.0;37.0;0.00
00:59:12.000;4.81;0.31;285;0.0;37.0;0.00
00:59:20.000;4.81;0.31;286;0.0;37.0;0.00
00:59:28.000;4.81;0.30;287;0.0;37.0;0.00
00:59:36.000;4.81;0.31;287;0.0;37.0;0.00
00:59:44.000;4.81;0.30;288;0.0;37.0;0.00
00:59:52.000;4.81;0.30;289;0.0;37.0;0.00
01:00:00.000;4.81;0.31;289;0.0;37.0;0.00
01:00:08.000;4.81;0.30;290;0.0;37.0;0.00
01:00:16.000;4.81;0.30;291;0.0;37.0;0.00
01:00:24.000;4.81;0.30;291;0.0;37.0;0.00
01:00:32.000;4.81;0.30;292;0.0;37.0;0.00
01:00:40.000;4.81;0.30;293;0.0;37.0;0.00
01:00:48.000;4.81;0.31;293;0.0;37.0;0.00
01:00:56.000;4.80;0.30;294;0.0;37.0;0.00
01:01:04.000;4.80;0.30;295;0.0;37.0;0.00
01:01:12.000;4.80;0.30;295;0.0;37.0;0.00
01:01:20.000;4.80;0.31;296;0.0;37.0;0.00
01:01:28.000;4.80;0.30;297;0.0;37.0;0.00
01:01:36.000;4.80;0.30;297;0.0;37.0;0.00
01:01:44.000;4.80;0.31;298;0.0;37.0;0.00
01:01:52.000;4.80;0.30;299;0.0;37.0;0.00
01:02:00.000;4.80;0.30;299;0.0;37.0;0.00
01:02:08.000;4.80;0.30;300;0.0;37.0;0.00
01:02:16.000;4.80;0.31;301;0.0;37.0;0.00
01:02:24.000;4.80;0.30;301;0.0;37.0;0.00
01:02:32.000;4.80;0.31;302;0.0;37.0;0.00
01:02:40.000;4.80;0.30;303;0.0;37.0;0.00
01:02:48.000;4.80;0.31;303;0.0;37.0;0.00
01:02:56.000;4.80;0.30;304;0.0;37.0;0.00
01:03:04.000;4.80;0.30;305;0.0;37.0;0.00
01:03:12.000;4.80;0.31;305;0.0;37.0;0.00
01:03:20.000;4.79;0.32;306;0.0;37.0;0.00
01:03:28.000;4.79;0.32;307;0.0;37.0;0.00
01:03:36.000;4.79;0.31;307;0.0;37.0;0.00
01:03:44.000;4.79;0.30;308;0.0;37.0;0.00
01:03:52.000;4.79;0.30;309;0.0;37.0;0.00
01:04:00.000;4.79;0.32;309;0.0;37.0;0.00
01:04:08.000;4.79;0.30;310;0.0;37.0;0.00
01:04:16.000;4.79;0.30;311;0.0;37.0;0.00
01:04:24.000;4.79;0.30;311;0.0;37.0;0.00
01:04:32.000;4.79;0.30;312;0.0;37.0;0.00
01:04:40.000;4.79;0.30;313;0.0;37.0;0.00
01:04:48.000;4.79;0.30;313;0.0;37.0;0.00
01:04:56.000;4.79;0.31;314;0.0;37.0;0.00
01:05:04.000;4.79;0.31;315;0.0;37.0;0.00
01:05:12.000;4.79;0.30;315;0.0;37.0;0.00
01:05:20.000;4.79;0.31;316;0.0;37.0;0.00
01:05:28.000;4.79;0.30;317;0.0;37.0;0.00
01:05:36.000;4.79;0.30;317;0.0;37.0;0.00
01:05:44.000;4.79;0.30;318;0.0;37.0;0.00
01:05:52.000;4.79;0.30;319;0.0;37.0;0.00
01:06:00.000;4.79;0.31;320;0.0;37.0;0.00
01:06:08.000;4.79;0.30;320;0.0;37.0;0.00
01:06:16.000;4.79;0.30;321;0.0;37.0;0.00
01:06:24.000;4.79;0.31;321;0.0;37.0;0.00
01:06:32.000;4.79;0.30;322;0.0;37.0;0.00
01:06:40.000;4.79;0.31;323;0.0;37.0;0.00
01:06:48.000;4.78;0.30;324;0.0;37.0;0.00
01:06:56.000;4.78;0.31;324;0.0;37.0;0.00
01:07:04.000;4.78;0.31;325;0.0;37.0;0.00
01:07:12.000;4.79;0.30;326;0.0;37.0;0.00
01:07:20.000;4.78;0.30;326;0.0;37.0;0.00
01:07:28.000;4.78;0.31;327;0.0;37.0;0.00
01:07:36.000;4.78;0.30;328;0.0;37.0;0.00
01:07:44.000;4.78;0.30;328;0.0;37.0;0.00
01:07:52.000;4.78;0.31;329;0.0;37.0;0.00
01:08:00.000;4.78;0.31;330;0.0;37.0;0.00
01:08:08.000;4.78;0.30;330;0.0;37.0;0.00
01:08:16.000;4.78;0.30;331;0.0;37.0;0.00
01:08:24.000;4.78;0.30;332;0.0;37.0;0.00
01:08:32.000;4.78;0.30;332;0.0;37.0;0.00
01:08:40.000;4.78;0.30;333;0.0;37.0;0.00
01:08:48.000;4.78;0.30;334;0.0;37.0;0.00
01:08:56.000;4.78;0.30;334;0.0;37.0;0.00
01:09:04.000;4.78;0.30;335;0.0;37.0;0.00
01:09:12.000;4.78;0.30;336;0.0;37.0;0.00
01:09:20.000;4.78;0.31;337;0.0;37.0;0.00
01:09:28.000;4.77;0.30;337;0.0;37.0;0.00
01:09:36.000;4.77;0.31;338;0.0;37.0;0.00
01:09:44.000;4.77;0.31;338;0.0;37.0;0.00
01:09:52.000;4.77;0.30;339;0.0;37.0;0.00
01:10:00.000;4.77;0.31;340;0.0;37.0;0.00
01:10:08.000;4.77;0.30;340;0.0;37.0;0.00
01:10:16.000;4.77;0.30;341;0.0;37.0;0.00
01:10:24.000;4.77;0.30;342;0.0;37.0;0.00
01:10:32.000;4.77;0.30;343;0.0;37.0;0.00
01:10:40.000;4.77;0.30;343;0.0;37.0;0.00
01:10:48.000;4.77;0.30;344;0.0;37.0;0.00
01:10:56.000;4.77;0.30;345;0.0;37.0;0.00
01:11:04.000;4.77;0.30;345;0.0;37.0;0.00
01:11:12.000;4.77;0.30;346;0.0;37.0;0.00
01:11:20.000;4.77;0.31;347;0.0;37.0;0.00
01:11:28.000;4.77;0.31;347;0.0;37.0;0.00
01:11:36.000;4.77;0.30;348;0.0;37.0;0.00
01:11:44.000;4.76;0.30;349;0.0;37.0;0.00
01:11:52.000;4.76;0.30;349;0.0;37.0;0.00
01:12:00.000;4.76;0.30;350;0.0;37.0;0.00
01:12:08.000;4.76;0.31;350;0.0;37.0;0.00
01:12:16.000;4.76;0.30;351;0.0;37.0;0.00
01:12:24.000;4.76;0.30;352;0.0;37.0;0.00
01:12:32.000;4.76;0.30;353;0.0;37.0;0.00
01:12:40.000;4.76;0.30;353;0.0;37.0;0.00
01:12:48.000;4.76;0.30;354;0.0;37.0;0.00
01:12:56.000;4.76;0.30;355;0.0;37.0;0.00
01:13:04.000;4.76;0.31;355;0.0;37.0;0.00
01:13:12.000;4.76;0.30;356;0.0;37.0;0.00
01:13:20.000;4.76;0.30;357;0.0;37.0;0.00
01:13:28.000;4.76;0.30;357;0.0;37.0;0.00
01:13:36.000;4.75;0.30;358;0.0;37.0;0.00
01:13:44.000;4.75;0.30;359;0.0;37.0;0.00
01:13:52.000;4.75;0.30;359;0.0;37.0;0.00
01:14:00.000;4.75;0.31;360;0.0;37.0;0.00
01:14:08.000;4.75;0.31;361;0.0;37.0;0.00
01:14:16.000;4.75;0.30;361;0.0;37.0;0.00
01:14:24.000;4.75;0.30;362;0.0;37.0;0.00
01:14:32.000;4.75;0.30;363;0.0;37.0;0.00
01:14:40.000;4.75;0.31;363;0.0;37.0;0.00
01:14:48.000;4.75;0.30;364;0.0;37.0;0.00
01:14:56.000;4.75;0.30;365;0.0;37.0;0.00
01:15:04.000;4.75;0.31;365;0.0;37.0;0.00
01:15:12.000;4.75;0.31;366;0.0;37.0;0.00
01:15:20.000;4.75;0.30;367;0.0;37.0;0.00
01:15:28.000;4.75;0.30;367;0.0;37.0;0.00
01:15:36.000;4.75;0.30;368;0.0;37.0;0.00
01:15:44.000;4.74;0.30;369;0.0;37.0;0.00
01:15:52.000;4.74;0.31;369;0.0;37.0;0.00
01:16:00.000;4.74;0.30;370;0.0;37.0;0.00
01:16:08.000;4.74;0.31;371;0.0;37.0;0.00
01:16:16.000;4.74;0.30;371;0.0;37.0;0.00
01:16:24.000;4.74;0.30;372;0.0;37.0;0.00
01:16:32.000;4.74;0.30;373;0.0;37.0;0.00
01:16:40.000;4.74;0.30;373;0.0;37.0;0.00
01:16:48.000;4.74;0.30;374;0.0;37.0;0.00
01:16:56.000;4.74;0.30;375;0.0;37.0;0.00
01:17:04.000;4.74;0.30;375;0.0;37.0;0.00
01:17:12.000;4.74;0.30;376;0.0;37.0;0.00
01:17:20.000;4.74;0.31;377;0.0;37.0;0.00
01:17:28.000;4.74;0.30;377;0.0;37.0;0.00
01:17:36.000;4.73;0.31;378;0.0;37.0;0.00
01:17:44.000;4.73;0.30;379;0.0;37.0;0.00
01:17:52.000;4.73;0.30;379;0.0;37.0;0.00
01:18:00.000;4.73;0.31;380;0.0;37.0;0.00
01:18:08.000;4.73;0.30;381;0.0;37.0;0.00
01:18:16.000;4.73;0.30;381;0.0;37.0;0.00
01:18:24.000;4.73;0.31;382;0.0;37.0;0.00
01:18:32.000;4.73;0.30;383;0.0;37.0;0.00
01:18:40.000;4.73;0.30;384;0.0;37.0;0.00
01:18:48.000;4.73;0.30;384;0.0;37.0;0.00
01:18:56.000;4.73;0.30;385;0.0;37.0;0.00
01:19:04.000;4.73;0.30;385;0.0;37.0;0.00
01:19:12.000;4.73;0.31;386;0.0;37.0;0.00
01:19:20.000;4.73;0.30;387;0.0;37.0;0.00
01:19:28.000;4.73;0.31;388;0.0;37.0;0.00
01:19:36.000;4.72;0.31;388;0.0;37.0;0.00
01:19:44.000;4.72;0.30;389;0.0;37.0;0.00
01:19:52.000;4.72;0.30;389;0.0;37.0;0.00
01:20:00.000;4.72;0.30;390;0.0;37.0;0.00
01:20:08.000;4.72;0.30;391;0.0;37.0;0.00
01:20:16.000;4.72;0.30;391;0.0;37.0;0.00
01:20:24.000;4.72;0.30;392;0.0;37.0;0.00
01:20:32.000;4.72;0.30;393;0.0;37.0;0.00
01:20:40.000;4.72;0.30;393;0.0;37.0;0.00
01:20:48.000;4.72;0.30;394;0.0;37.0;0.00
01:20:56.000;4.72;0.30;395;0.0;37.0;0.00
01:21:04.000;4.72;0.30;395;0.0;37.0;0.00
01:21:12.000;4.72;0.31;396;0.0;37.0;0.00
01:21:20.000;4.71;0.31;397;0.0;37.0;0.00
01:21:28.000;4.71;0.30;397;0.0;37.0;0.00
01:21:36.000;4.71;0.30;398;0.0;37.0;0.00
01:21:44.000;4.71;0.30;399;0.0;37.0;0.00
01:21:52.000;4.71;0.30;399;0.0;37.0;0.00
01:22:00.000;4.71;0.31;400;0.0;37.0;0.00
01:22:08.000;4.71;0.30;401;0.0;37.0;0.00
01:22:16.000;4.71;0.31;402;0.0;37.0;0.00
01:22:24.000;4.71;0.30;402;0.0;37.0;0.00
01:22:32.000;4.71;0.30;403;0.0;37.0;0.00
01:22:40.000;4.71;0.30;404;0.0;37.0;0.00
01:22:48.000;4.71;0.30;404;0.0;37.0;0.00
01:22:56.000;4.71;0.31;405;0.0;37.0;0.00
01:23:04.000;4.71;0.30;406;0.0;37.0;0.00
01:23:12.000;4.71;0.30;406;0.0;37.0;0.00
01:23:20.000;4.70;0.30;407;0.0;37.0;0.00
01:23:28.000;4.70;0.31;408;0.0;37.0;0.00
01:23:36.000;4.70;0.30;408;0.0;37.0;0.00
01:23:44.000;4.70;0.30;409;0.0;37.0;0.00
01:23:52.000;4.70;0.30;410;0.0;37.0;0.00
01:24:00.000;4.70;0.31;410;0.0;37.0;0.00
01:24:08.000;4.70;0.31;411;0.0;37.0;0.00
01:24:16.000;4.70;0.30;412;0.0;37.0;0.00
01:24:24.000;4.70;0.30;412;0.0;37.0;0.00
01:24:32.000;4.70;0.30;413;0.0;37.0;0.00
01:24:40.000;4.70;0.30;414;0.0;37.0;0.00
01:24:48.000;4.70;0.30;414;0.0;37.0;0.00
01:24:56.000;4.70;0.30;415;0.0;37.0;0.00
01:25:04.000;4.69;0.30;416;0.0;37.0;0.00
01:25:12.000;4.69;0.30;416;0.0;37.0;0.00
01:25:20.000;4.69;0.30;417;0.0;37.0;0.00
01:25:28.000;4.69;0.30;418;0.0;37.0;0.00
01:25:36.000;4.69;0.31;418;0.0;37.0;0.00
01:25:44.000;4.69;0.30;419;0.0;37.0;0.00
01:25:52.000;4.69;0.30;420;0.0;37.0;0.00
01:26:00.000;4.69;0.30;420;0.0;37.0;0.00
01:26:08.000;4.69;0.30;421;0.0;37.0;0.00
01:26:16.000;4.68;0.30;422;0.0;37.0;0.00
01:26:24.000;4.68;0.31;422;0.0;37.0;0.00
01:26:32.000;4.68;0.31;423;0.0;37.0;0.00
01:26:40.000;4.68;0.30;424;0.0;37.0;0.00
01:26:48.000;4.68;0.30;424;0.0;37.0;0.00
01:26:56.000;4.68;0.30;425;0.0;37.0;0.00
01:27:04.000;4.68;0.30;426;0.0;37.0;0.00
01:27:12.000;4.68;0.30;426;0.0;37.0;0.00
01:27:20.000;4.68;0.30;427;0.0;37.0;0.00
01:27:28.000;4.68;0.31;428;0.0;37.0;0.00
01:27:36.000;4.67;0.31;428;0.0;37.0;0.00
01:27:44.000;4.67;0.30;429;0.0;37.0;0.00
01:27:52.000;4.67;0.30;430;0.0;37.0;0.00
01:28:00.000;4.67;0.30;430;0.0;37.0;0.00
01:28:08.000;4.67;0.32;431;0.0;37.0;0.00
01:28:16.000;4.67;0.30;432;0.0;37.0;0.00
01:28:24.000;4.67;0.30;433;0.0;37.0;0.00
01:28:32.000;4.67;0.30;433;0.0;37.0;0.00
01:28:40.000;4.67;0.30;434;0.0;37.0;0.00
01:28:48.000;4.67;0.30;435;0.0;37.0;0.00
01:28:56.000;4.67;0.31;435;0.0;37.0;0.00
01:29:04.000;4.67;0.30;436;0.0;37.0;0.00
01:29:12.000;4.66;0.31;437;0.0;37.0;0.00
01:29:20.000;4.66;0.30;437;0.0;37.0;0.00
01:29:28.000;4.66;0.30;438;0.0;37.0;0.00
01:29:36.000;4.66;0.31;439;0.0;37.0;0.00
01:29:44.000;4.66;0.30;439;0.0;37.0;0.00
01:29:52.000;4.66;0.30;440;0.0;37.0;0.00
01:30:00.000;4.66;0.30;441;0.0;37.0;0.00
01:30:08.000;4.66;0.30;441;0.0;37.0;0.00
01:30:16.000;4.66;0.31;442;0.0;37.0;0.00
01:30:24.000;4.66;0.31;443;0.0;37.0;0.00
01:30:32.000;4.66;0.30;443;0.0;37.0;0.00
01:30:40.000;4.66;0.30;444;0.0;37.0;0.00
01:30:48.000;4.65;0.30;445;0.0;37.0;0.00
01:30:56.000;4.65;0.30;445;0.0;37.0;0.00
01:31:04.000;4.65;0.30;446;0.0;37.0;0.00
01:31:12.000;4.65;0.30;447;0.0;37.0;0.00
01:31:20.000;4.65;0.30;447;0.0;37.0;0.00
01:31:28.000;4.65;0.30;448;0.0;37.0;0.00
01:31:36.000;4.65;0.31;449;0.0;37.0;0.00
01:31:44.000;4.65;0.31;449;0.0;37.0;0.00
01:31:52.000;4.65;0.30;450;0.0;37.0;0.00
01:32:00.000;4.65;0.30;451;0.0;37.0;0.00
01:32:08.000;4.65;0.30;451;0.0;37.0;0.00
01:32:16.000;4.64;0.30;452;0.0;37.0;0.00
01:32:24.000;4.64;0.31;453;0.0;37.0;0.00
01:32:32.000;4.64;0.31;453;0.0;37.0;0.00
01:32:40.000;4.64;0.30;454;0.0;37.0;0.00
01:32:48.000;4.64;0.30;455;0.0;37.0;0.00
01:32:56.000;4.64;0.31;455;0.0;37.0;0.00
01:33:04.000;4.64;0.31;456;0.0;37.0;0.00
01:33:12.000;4.64;0.31;457;0.0;37.0;0.00
01:33:20.000;4.64;0.30;457;0.0;37.0;0.00
01:33:28.000;4.64;0.30;458;0.0;37.0;0.00
01:33:36.000;4.64;0.30;459;0.0;37.0;0.00
01:33:44.000;4.64;0.30;459;0.0;37.0;0.00
01:33:52.000;4.64;0.30;460;0.0;37.0;0.00
01:34:00.000;4.63;0.32;461;0.0;37.0;0.00
01:34:08.000;4.63;0.32;461;0.0;37.0;0.00
01:34:16.000;4.63;0.30;462;0.0;37.0;0.00
01:34:24.000;4.63;0.30;463;0.0;37.0;0.00
01:34:32.000;4.63;0.31;463;0.0;37.0;0.00
01:34:40.000;4.63;0.31;464;0.0;37.0;0.00
01:34:48.000;4.63;0.31;465;0.0;37.0;0.00
01:34:56.000;4.63;0.32;465;0.0;37.0;0.00
01:35:04.000;4.63;0.31;466;0.0;37.0;0.00
01:35:12.000;4.63;0.30;467;0.0;37.0;0.00
01:35:20.000;4.63;0.30;468;0.0;37.0;0.00
01:35:28.000;4.63;0.30;468;0.0;37.0;0.00
01:35:36.000;4.63;0.30;469;0.0;37.0;0.00
01:35:44.000;4.63;0.30;469;0.0;37.0;0.00
01:35:52.000;4.62;0.30;470;0.0;37.0;0.00
01:36:00.000;4.62;0.30;471;0.0;37.0;0.00
01:36:08.000;4.62;0.30;471;0.0;37.0;0.00
01:36:16.000;4.62;0.30;472;0.0;37.0;0.00
01:36:24.000;4.62;0.30;473;0.0;37.0;0.00
01:36:32.000;4.62;0.30;474;0.0;37.0;0.00
01:36:40.000;4.62;0.30;474;0.0;37.0;0.00
01:36:48.000;4.62;0.30;475;0.0;37.0;0.00
01:36:56.000;4.62;0.31;476;0.0;37.0;0.00
01:37:04.000;4.62;0.30;476;0.0;37.0;0.00
01:37:12.000;4.62;0.31;477;0.0;37.0;0.00
01:37:20.000;4.62;0.30;478;0.0;37.0;0.00
01:37:28.000;4.62;0.31;478;0.0;37.0;0.00
01:37:36.000;4.62;0.30;479;0.0;37.0;0.00
01:37:44.000;4.62;0.30;480;0.0;37.0;0.00
01:37:52.000;4.61;0.30;480;0.0;37.0;0.00
01:38:00.000;4.61;0.30;481;0.0;37.0;0.00
01:38:08.000;4.61;0.30;482;0.0;37.0;0.00
01:38:16.000;4.61;0.31;482;0.0;37.0;0.00
01:38:24.000;4.61;0.30;483;0.0;37.0;0.00
01:38:32.000;4.61;0.30;484;0.0;37.0;0.00
01:38:40.000;4.61;0.31;484;0.0;37.0;0.00
01:38:48.000;4.61;0.32;485;0.0;37.0;0.00
01:38:56.000;4.61;0.30;486;0.0;37.0;0.00
01:39:04.000;4.61;0.30;486;0.0;37.0;0.00
01:39:12.000;4.61;0.30;487;0.0;37.0;0.00
01:39:20.000;4.61;0.30;488;0.0;37.0;0.00
01:39:28.000;4.60;0.31;488;0.0;37.0;0.00
01:39:36.000;4.60;0.32;489;0.0;37.0;0.00
01:39:44.000;4.60;0.30;490;0.0;37.0;0.00
01:39:52.000;4.60;0.30;490;0.0;37.0;0.00
01:40:00.000;4.60;0.31;491;0.0;37.0;0.00
01:40:08.000;4.60;0.30;492;0.0;37.0;0.00
01:40:16.000;4.60;0.31;492;0.0;37.0;0.00
01:40:24.000;4.60;0.30;493;0.0;37.0;0.00
01:40:32.000;4.60;0.30;494;0.0;37.0;0.00
01:40:40.000;4.60;0.32;494;0.0;37.0;0.00
01:40:48.000;4.60;0.30;495;0.0;37.0;0.00
01:40:56.000;4.60;0.31;496;0.0;37.0;0.00
01:41:04.000;4.59;0.30;496;0.0;37.0;0.00
01:41:12.000;4.59;0.30;497;0.0;37.0;0.00
01:41:20.000;4.59;0.31;498;0.0;37.0;0.00
01:41:28.000;4.59;0.30;498;0.0;37.0;0.00
01:41:36.000;4.59;0.30;499;0.0;37.0;0.00
01:41:44.000;4.59;0.31;500;0.0;37.0;0.00
01:41:52.000;4.59;0.31;500;0.0;37.0;0.00
01:42:00.000;4.59;0.31;501;0.0;37.0;0.00
01:42:08.000;4.59;0.30;502;0.0;37.0;0.00
01:42:16.000;4.59;0.31;502;0.0;37.0;0.00
01:42:24.000;4.59;0.32;503;0.0;37.0;0.00
01:42:32.000;4.59;0.30;504;0.0;37.0;0.00
01:42:40.000;4.59;0.31;504;0.0;37.0;0.00
01:42:48.000;4.59;0.30;505;0.0;37.0;0.00
01:42:56.000;4.58;0.32;506;0.0;37.0;0.00
01:43:04.000;4.58;0.31;507;0.0;37.0;0.00
01:43:12.000;4.58;0.31;507;0.0;37.0;0.00
01:43:20.000;4.58;0.30;508;0.0;37.0;0.00
01:43:28.000;4.58;0.30;509;0.0;37.0;0.00
01:43:36.000;4.58;0.30;509;0.0;37.0;0.00
01:43:44.000;4.58;0.31;510;0.0;37.0;0.00
01:43:52.000;4.58;0.30;511;0.0;37.0;0.00
01:44:00.000;4.58;0.30;511;0.0;37.0;0.00
01:44:08.000;4.58;0.30;512;0.0;37.0;0.00
01:44:16.000;4.58;0.30;513;0.0;37.0;0.00
01:44:24.000;4.58;0.30;513;0.0;37.0;0.00
01:44:32.000;4.58;0.30;514;0.0;37.0;0.00
01:44:40.000;4.58;0.32;515;0.0;37.0;0.00
01:44:48.000;4.57;0.30;515;0.0;37.0;0.00
01:44:56.000;4.57;0.30;516;0.0;37.0;0.00
01:45:04.000;4.57;0.30;517;0.0;37.0;0.00
01:45:12.000;4.57;0.30;517;0.0;37.0;0.00
01:45:20.000;4.57;0.30;518;0.0;37.0;0.00
01:45:28.000;4.57;0.31;519;0.0;37.0;0.00
01:45:36.000;4.57;0.31;519;0.0;37.0;0.00
01:45:44.000;4.57;0.31;520;0.0;37.0;0.00
01:45:52.000;4.57;0.31;521;0.0;37.0;0.00
01:46:00.000;4.57;0.31;522;0.0;37.0;0.00
01:46:08.000;4.57;0.30;522;0.0;37.0;0.00
01:46:16.000;4.57;0.30;523;0.0;37.0;0.00
01:46:24.000;4.57;0.31;523;0.0;37.0;0.00
01:46:32.000;4.56;0.31;524;0.0;37.0;0.00
01:46:40.000;4.56;0.30;525;0.0;37.0;0.00
01:46:48.000;4.56;0.30;525;0.0;37.0;0.00
01:46:56.000;4.56;0.31;526;0.0;37.0;0.00
01:47:04.000;4.56;0.32;527;0.0;37.0;0.00
01:47:12.000;4.56;0.30;527;0.0;37.0;0.00
01:47:20.000;4.56;0.30;528;0.0;37.0;0.00
01:47:28.000;4.56;0.30;529;0.0;37.0;0.00
01:47:36.000;4.56;0.31;530;0.0;37.0;0.00
01:47:44.000;4.56;0.30;530;0.0;37.0;0.00
01:47:52.000;4.56;0.31;531;0.0;37.0;0.00
01:48:00.000;4.56;0.31;532;0.0;37.0;0.00
01:48:08.000;4.56;0.30;532;0.0;37.0;0.00
01:48:16.000;4.55;0.30;533;0.0;37.0;0.00
01:48:24.000;4.55;0.31;534;0.0;37.0;0.00
01:48:32.000;4.55;0.32;534;0.0;37.0;0.00
01:48:40.000;4.55;0.30;535;0.0;37.0;0.00
01:48:48.000;4.55;0.31;536;0.0;37.0;0.00
01:48:56.000;4.55;0.30;536;0.0;37.0;0.00
01:49:04.000;4.55;0.31;537;0.0;37.0;0.00
01:49:12.000;4.55;0.31;538;0.0;37.0;0.00
01:49:20.000;4.55;0.32;538;0.0;37.0;0.00
01:49:28.000;4.55;0.32;539;0.0;37.0;0.00
01:49:36.000;4.55;0.31;540;0.0;37.0;0.00
01:49:44.000;4.55;0.30;540;0.0;37.0;0.00
01:49:52.000;4.55;0.30;541;0.0;37.0;0.00
01:50:00.000;4.54;0.30;542;0.0;37.0;0.00
01:50:08.000;4.54;0.30;542;0.0;37.0;0.00
01:50:16.000;4.54;0.31;543;0.0;37.0;0.00
01:50:24.000;4.54;0.30;544;0.0;37.0;0.00
01:50:32.000;4.54;0.30;544;0.0;37.0;0.00
01:50:40.000;4.54;0.30;545;0.0;37.0;0.00
01:50:48.000;4.54;0.30;546;0.0;37.0;0.00
01:50:56.000;4.54;0.30;546;0.0;37.0;0.00
01:51:04.000;4.54;0.31;547;0.0;37.0;0.00
01:51:12.000;4.54;0.30;548;0.0;37.0;0.00
01:51:20.000;4.54;0.30;548;0.0;37.0;0.00
01:51:28.000;4.54;0.30;549;0.0;37.0;0.00
01:51:36.000;4.54;0.30;550;0.0;37.0;0.00
01:51:44.000;4.54;0.30;550;0.0;37.0;0.00
01:51:52.000;4.54;0.30;551;0.0;37.0;0.00
01:52:00.000;4.53;0.30;552;0.0;37.0;0.00
01:52:08.000;4.53;0.30;552;0.0;37.0;0.00
01:52:16.000;4.53;0.30;553;0.0;37.0;0.00
01:52:24.000;4.53;0.31;554;0.0;37.0;0.00
01:52:32.000;4.53;0.31;554;0.0;37.0;0.00
01:52:40.000;4.53;0.30;555;0.0;37.0;0.00
01:52:48.000;4.53;0.30;556;0.0;37.0;0.00
01:52:56.000;4.53;0.31;556;0.0;37.0;0.00
01:53:04.000;4.53;0.31;557;0.0;37.0;0.00
01:53:12.000;4.53;0.30;558;0.0;37.0;0.00
01:53:20.000;4.53;0.30;558;0.0;37.0;0.00
01:53:28.000;4.53;0.31;559;0.0;37.0;0.00
01:53:36.000;4.53;0.30;560;0.0;37.0;0.00
01:53:44.000;4.53;0.30;560;0.0;37.0;0.00
01:53:52.000;4.52;0.31;561;0.0;37.0;0.00
01:54:00.000;4.52;0.30;562;0.0;37.0;0.00
01:54:08.000;4.52;0.31;562;0.0;37.0;0.00
01:54:16.000;4.52;0.31;563;0.0;37.0;0.00
01:54:24.000;4.52;0.30;564;0.0;37.0;0.00
01:54:32.000;4.52;0.31;564;0.0;37.0;0.00
01:54:40.000;4.52;0.30;565;0.0;37.0;0.00
01:54:48.000;4.52;0.32;566;0.0;37.0;0.00
01:54:56.000;4.52;0.31;566;0.0;37.0;0.00
01:55:04.000;4.52;0.31;567;0.0;37.0;0.00
01:55:12.000;4.52;0.30;568;0.0;37.0;0.00
01:55:20.000;4.52;0.30;568;0.0;37.0;0.00
01:55:28.000;4.52;0.30;569;0.0;37.0;0.00
01:55:36.000;4.52;0.30;570;0.0;37.0;0.00
01:55:44.000;4.52;0.30;570;0.0;37.0;0.00
01:55:52.000;4.51;0.31;571;0.0;37.0;0.00
01:56:00.000;4.51;0.30;572;0.0;37.0;0.00
01:56:08.000;4.51;0.30;572;0.0;37.0;0.00
01:56:16.000;4.51;0.30;573;0.0;37.0;0.00
01:56:24.000;4.51;0.30;574;0.0;37.0;0.00
01:56:32.000;4.51;0.30;574;0.0;37.0;0.00
01:56:40.000;4.51;0.30;575;0.0;37.0;0.00
01:56:48.000;4.51;0.30;576;0.0;37.0;0.00
01:56:56.000;4.51;0.30;576;0.0;37.0;0.00
01:57:04.000;4.51;0.30;577;0.0;37.0;0.00
01:57:12.000;4.51;0.31;578;0.0;37.0;0.00
01:57:20.000;4.51;0.30;578;0.0;37.0;0.00
01:57:28.000;4.51;0.30;579;0.0;37.0;0.00
01:57:36.000;4.51;0.31;580;0.0;37.0;0.00
01:57:44.000;4.51;0.30;580;0.0;37.0;0.00
01:57:52.000;4.50;0.30;581;0.0;37.0;0.00
01:58:00.000;4.50;0.30;582;0.0;37.0;0.00
01:58:08.000;4.50;0.31;582;0.0;37.0;0.00
01:58:16.000;4.50;0.31;583;0.0;37.0;0.00
01:58:24.000;4.50;0.30;584;0.0;37.0;0.00
01:58:32.000;4.50;0.30;585;0.0;37.0;0.00
01:58:40.000;4.50;0.30;585;0.0;37.0;0.00
01:58:48.000;4.50;0.31;586;0.0;37.0;0.00
01:58:56.000;4.50;0.30;587;0.0;37.0;0.00
01:59:04.000;4.50;0.30;587;0.0;37.0;0.00
01:59:12.000;4.50;0.31;588;0.0;37.0;0.00
01:59:20.000;4.50;0.30;588;0.0;37.0;0.00
01:59:28.000;4.50;0.30;589;0.0;37.0;0.00
01:59:36.000;4.50;0.30;590;0.0;37.0;0.00
01:59:44.000;4.50;0.30;590;0.0;37.0;0.00
01:59:52.000;4.50;0.30;591;0.0;37.0;0.00
02:00:00.000;4.50;0.30;592;0.0;37.0;0.00
02:00:08.000;4.49;0.31;593;0.0;37.0;0.00
02:00:16.000;4.49;0.30;593;0.0;37.0;0.00
02:00:24.000;4.49;0.30;594;0.0;37.0;0.00
02:00:32.000;4.49;0.31;595;0.0;37.0;0.00
02:00:40.000;4.49;0.30;595;0.0;37.0;0.00
02:00:48.000;4.49;0.30;596;0.0;37.0;0.00
02:00:56.000;4.49;0.31;597;0.0;37.0;0.00
02:01:04.000;4.49;0.30;597;0.0;37.0;0.00
02:01:12.000;4.49;0.30;598;0.0;37.0;0.00
02:01:20.000;4.49;0.31;599;0.0;37.0;0.00
02:01:28.000;4.49;0.30;599;0.0;37.0;0.00
02:01:36.000;4.49;0.30;600;0.0;37.0;0.00
02:01:44.000;4.49;0.31;601;0.0;37.0;0.00
02:01:52.000;4.49;0.30;601;0.0;37.0;0.00
02:02:00.000;4.48;0.30;602;0.0;37.0;0.00
02:02:08.000;4.48;0.30;603;0.0;37.0;0.00
02:02:16.000;4.48;0.31;603;0.0;37.0;0.00
02:02:24.000;4.48;0.30;604;0.0;37.0;0.00
02:02:32.000;4.48;0.30;605;0.0;37.0;0.00
02:02:40.000;4.48;0.30;606;0.0;37.0;0.00
02:02:48.000;4.48;0.31;606;0.0;37.0;0.00
02:02:56.000;4.48;0.30;607;0.0;37.0;0.00
02:03:04.000;4.48;0.30;608;0.0;37.0;0.00
02:03:12.000;4.48;0.31;608;0.0;37.0;0.00
02:03:20.000;4.48;0.30;609;0.0;37.0;0.00
02:03:28.000;4.48;0.31;610;0.0;37.0;0.00
02:03:36.000;4.48;0.30;610;0.0;37.0;0.00
02:03:44.000;4.47;0.31;611;0.0;37.0;0.00
02:03:52.000;4.47;0.30;612;0.0;37.0;0.00
02:04:00.000;4.47;0.30;612;0.0;37.0;0.00
02:04:08.000;4.47;0.30;613;0.0;37.0;0.00
02:04:16.000;4.47;0.30;614;0.0;37.0;0.00
02:04:24.000;4.47;0.31;614;0.0;37.0;0.00
02:04:32.000;4.47;0.30;615;0.0;37.0;0.00
02:04:40.000;4.47;0.32;616;0.0;37.0;0.00
02:04:48.000;4.47;0.30;616;0.0;37.0;0.00
02:04:56.000;4.47;0.30;617;0.0;37.0;0.00
02:05:04.000;4.47;0.30;618;0.0;37.0;0.00
02:05:12.000;4.47;0.32;618;0.0;37.0;0.00
02:05:20.000;4.47;0.30;619;0.0;37.0;0.00
02:05:28.000;4.47;0.30;620;0.0;37.0;0.00
02:05:36.000;4.46;0.30;620;0.0;37.0;0.00
02:05:44.000;4.46;0.30;621;0.0;37.0;0.00
02:05:52.000;4.46;0.30;622;0.0;37.0;0.00
02:06:00.000;4.46;0.30;622;0.0;37.0;0.00
02:06:08.000;4.46;0.30;623;0.0;37.0;0.00
02:06:16.000;4.46;0.30;624;0.0;37.0;0.00
02:06:24.000;4.46;0.30;624;0.0;37.0;0.00
02:06:32.000;4.46;0.30;625;0.0;37.0;0.00
02:06:40.000;4.46;0.30;626;0.0;37.0;0.00
02:06:48.000;4.46;0.30;626;0.0;37.0;0.00
02:06:56.000;4.46;0.31;627;0.0;37.0;0.00
02:07:04.000;4.46;0.30;628;0.0;37.0;0.00
02:07:12.000;4.46;0.30;628;0.0;37.0;0.00
02:07:20.000;4.46;0.30;629;0.0;37.0;0.00
02:07:28.000;4.46;0.30;630;0.0;37.0;0.00
02:07:36.000;4.45;0.30;630;0.0;37.0;0.00
02:07:44.000;4.45;0.30;631;0.0;37.0;0.00
02:07:52.000;4.45;0.30;632;0.0;37.0;0.00
02:08:00.000;4.45;0.30;632;0.0;37.0;0.00
02:08:08.000;4.45;0.30;633;0.0;37.0;0.00
02:08:16.000;4.45;0.30;634;0.0;37.0;0.00
02:08:24.000;4.45;0.31;634;0.0;37.0;0.00
02:08:32.000;4.45;0.32;635;0.0;37.0;0.00
02:08:40.000;4.45;0.31;636;0.0;37.0;0.00
02:08:48.000;4.45;0.30;636;0.0;37.0;0.00
02:08:56.000;4.45;0.30;637;0.0;37.0;0.00
02:09:04.000;4.45;0.30;638;0.0;37.0;0.00
02:09:12.000;4.45;0.32;638;0.0;37.0;0.00
02:09:20.000;4.44;0.31;639;0.0;37.0;0.00
02:09:28.000;4.44;0.30;640;0.0;37.0;0.00
02:09:36.000;4.44;0.30;640;0.0;37.0;0.00
02:09:44.000;4.44;0.31;641;0.0;37.0;0.00
02:09:52.000;4.44;0.30;642;0.0;37.0;0.00
02:10:00.000;4.44;0.30;642;0.0;37.0;0.00
02:10:08.000;4.44;0.31;643;0.0;37.0;0.00
02:10:16.000;4.44;0.30;644;0.0;37.0;0.00
02:10:24.000;4.44;0.30;645;0.0;37.0;0.00
02:10:32.000;4.44;0.31;645;0.0;37.0;0.00
02:10:40.000;4.44;0.30;646;0.0;37.0;0.00
02:10:48.000;4.44;0.30;647;0.0;37.0;0.00
02:10:56.000;4.43;0.30;647;0.0;37.0;0.00
02:11:04.000;4.43;0.32;648;0.0;37.0;0.00
02:11:12.000;4.43;0.31;649;0.0;37.0;0.00
02:11:20.000;4.43;0.31;649;0.0;37.0;0.00
02:11:28.000;4.43;0.30;650;0.0;37.0;0.00
02:11:36.000;4.43;0.31;651;0.0;37.0;0.00
02:11:44.000;4.43;0.31;651;0.0;37.0;0.00
02:11:52.000;4.43;0.30;652;0.0;37.0;0.00
02:12:00.000;4.43;0.30;653;0.0;37.0;0.00
02:12:08.000;4.43;0.32;653;0.0;37.0;0.00
02:12:16.000;4.43;0.30;654;0.0;37.0;0.00
02:12:24.000;4.42;0.30;655;0.0;37.0;0.00
02:12:32.000;4.42;0.30;655;0.0;37.0;0.00
02:12:40.000;4.42;0.30;656;0.0;37.0;0.00
02:12:48.000;4.42;0.30;657;0.0;37.0;0.00
02:12:56.000;4.42;0.30;657;0.0;37.0;0.00
02:13:04.000;4.42;0.30;658;0.0;37.0;0.00
02:13:12.000;4.42;0.30;659;0.0;37.0;0.00
02:13:20.000;4.42;0.30;659;0.0;37.0;0.00
02:13:28.000;4.42;0.31;660;0.0;37.0;0.00
02:13:36.000;4.42;0.31;661;0.0;37.0;0.00
02:13:44.000;4.42;0.31;661;0.0;37.0;0.00
02:13:52.000;4.41;0.31;662;0.0;37.0;0.00
02:14:00.000;4.41;0.30;663;0.0;37.0;0.00
02:14:08.000;4.41;0.30;663;0.0;37.0;0.00
02:14:16.000;4.41;0.31;664;0.0;37.0;0.00
02:14:24.000;4.41;0.31;665;0.0;37.0;0.00
02:14:32.000;4.41;0.30;665;0.0;37.0;0.00
02:14:40.000;4.41;0.32;666;0.0;37.0;0.00
02:14:48.000;4.41;0.30;667;0.0;37.0;0.00
02:14:56.000;4.41;0.30;668;0.0;37.0;0.00
02:15:04.000;4.41;0.30;668;0.0;37.0;0.00
02:15:12.000;4.41;0.30;669;0.0;37.0;0.00
02:15:20.000;4.41;0.30;670;0.0;37.0;0.00
02:15:28.000;4.40;0.30;670;0.0;37.0;0.00
02:15:36.000;4.40;0.32;671;0.0;37.0;0.00
02:15:44.000;4.40;0.30;672;0.0;37.0;0.00
02:15:52.000;4.40;0.30;672;0.0;37.0;0.00
02:16:00.000;4.40;0.31;673;0.0;37.0;0.00
02:16:08.000;4.40;0.30;674;0.0;37.0;0.00
02:16:16.000;4.40;0.31;674;0.0;37.0;0.00
02:16:24.000;4.39;0.31;675;0.0;37.0;0.00
02:16:32.000;4.39;0.30;676;0.0;37.0;0.00
02:16:40.000;4.39;0.30;676;0.0;37.0;0.00
02:16:48.000;4.39;0.30;677;0.0;37.0;0.00
02:16:56.000;4.39;0.30;678;0.0;37.0;0.00
02:17:04.000;4.39;0.32;678;0.0;37.0;0.00
02:17:12.000;4.39;0.30;679;0.0;37.0;0.00
02:17:20.000;4.39;0.30;680;0.0;37.0;0.00
02:17:28.000;4.39;0.30;680;0.0;37.0;0.00
02:17:36.000;4.38;0.30;681;0.0;37.0;0.00
02:17:44.000;4.38;0.31;682;0.0;37.0;0.00
02:17:52.000;4.38;0.30;682;0.0;37.0;0.00
02:18:00.000;4.38;0.30;683;0.0;37.0;0.00
02:18:08.000;4.38;0.30;684;0.0;37.0;0.00
02:18:16.000;4.38;0.30;684;0.0;37.0;0.00
02:18:24.000;4.38;0.30;685;0.0;37.0;0.00
02:18:32.000;4.38;0.30;686;0.0;37.0;0.00
02:18:40.000;4.38;0.31;686;0.0;37.0;0.00
02:18:48.000;4.38;0.31;687;0.0;37.0;0.00
02:18:56.000;4.37;0.31;688;0.0;37.0;0.00
02:19:04.000;4.37;0.30;688;0.0;37.0;0.00
02:19:12.000;4.37;0.31;689;0.0;37.0;0.00
02:19:20.000;4.37;0.30;690;0.0;37.0;0.00
02:19:28.000;4.37;0.30;690;0.0;37.0;0.00
02:19:36.000;4.37;0.30;691;0.0;37.0;0.00
02:19:44.000;4.37;0.30;692;0.0;37.0;0.00
02:19:52.000;4.37;0.30;692;0.0;37.0;0.00
02:20:00.000;4.37;0.31;693;0.0;37.0;0.00
02:20:08.000;4.37;0.30;694;0.0;37.0;0.00
02:20:16.000;4.36;0.30;694;0.0;37.0;0.00
02:20:24.000;4.36;0.30;695;0.0;37.0;0.00
02:20:32.000;4.36;0.30;696;0.0;37.0;0.00
02:20:40.000;4.36;0.30;696;0.0;37.0;0.00
02:20:48.000;4.36;0.31;697;0.0;37.0;0.00
02:20:56.000;4.36;0.30;698;0.0;37.0;0.00
02:21:04.000;4.36;0.30;698;0.0;37.0;0.00
02:21:12.000;4.36;0.30;699;0.0;37.0;0.00
02:21:20.000;4.36;0.30;700;0.0;37.0;0.00
02:21:28.000;4.35;0.30;700;0.0;37.0;0.00
02:21:36.000;4.35;0.30;701;0.0;37.0;0.00
02:21:44.000;4.35;0.31;702;0.0;37.0;0.00
02:21:52.000;4.35;0.30;702;0.0;37.0;0.00
02:22:00.000;4.35;0.31;703;0.0;37.0;0.00
02:22:08.000;4.35;0.30;704;0.0;37.0;0.00
02:22:16.000;4.35;0.31;704;0.0;37.0;0.00
02:22:24.000;4.34;0.31;705;0.0;37.0;0.00
02:22:32.000;4.34;0.31;706;0.0;37.0;0.00
02:22:40.000;4.34;0.32;707;0.0;37.0;0.00
02:22:48.000;4.34;0.31;707;0.0;37.0;0.00
02:22:56.000;4.34;0.30;708;0.0;37.0;0.00
02:23:04.000;4.34;0.30;709;0.0;37.0;0.00
02:23:12.000;4.34;0.30;709;0.0;37.0;0.00
02:23:20.000;4.34;0.31;710;0.0;37.0;0.00
02:23:28.000;4.33;0.30;711;0.0;37.0;0.00
02:23:36.000;4.33;0.30;711;0.0;37.0;0.00
02:23:44.000;4.33;0.30;712;0.0;37.0;0.00
02:23:52.000;4.33;0.30;713;0.0;37.0;0.00
02:24:00.000;4.33;0.30;713;0.0;37.0;0.00
02:24:08.000;4.33;0.30;714;0.0;37.0;0.00
02:24:16.000;4.33;0.30;715;0.0;37.0;0.00
02:24:24.000;4.33;0.30;715;0.0;37.0;0.00
02:24:32.000;4.32;0.31;716;0.0;37.0;0.00
02:24:40.000;4.32;0.30;717;0.0;37.0;0.00
02:24:48.000;4.32;0.30;717;0.0;37.0;0.00
02:24:56.000;4.32;0.31;718;0.0;37.0;0.00
02:25:04.000;4.32;0.30;719;0.0;37.0;0.00
02:25:12.000;4.32;0.30;719;0.0;37.0;0.00
02:25:20.000;4.32;0.30;720;0.0;37.0;0.00
02:25:28.000;4.31;0.30;721;0.0;37.0;0.00
02:25:36.000;4.31;0.30;721;0.0;37.0;0.00
02:25:44.000;4.31;0.30;722;0.0;37.0;0.00
02:25:52.000;4.31;0.32;723;0.0;37.0;0.00
02:26:00.000;4.31;0.31;723;0.0;37.0;0.00
02:26:08.000;4.31;0.31;724;0.0;37.0;0.00
02:26:16.000;4.30;0.30;725;0.0;37.0;0.00
02:26:24.000;4.30;0.30;725;0.0;37.0;0.00
02:26:32.000;4.30;0.30;726;0.0;37.0;0.00
02:26:40.000;4.30;0.31;727;0.0;37.0;0.00
02:26:48.000;4.30;0.31;727;0.0;37.0;0.00
02:26:56.000;4.30;0.30;728;0.0;37.0;0.00
02:27:04.000;4.30;0.30;729;0.0;37.0;0.00
02:27:12.000;4.30;0.30;729;0.0;37.0;0.00
02:27:20.000;4.29;0.30;730;0.0;37.0;0.00
02:27:28.000;4.29;0.30;731;0.0;37.0;0.00
02:27:36.000;4.29;0.30;731;0.0;37.0;0.00
02:27:44.000;4.29;0.31;732;0.0;37.0;0.00
02:27:52.000;4.29;0.30;733;0.0;37.0;0.00
02:28:00.000;4.29;0.31;733;0.0;37.0;0.00
02:28:08.000;4.29;0.30;734;0.0;37.0;0.00
02:28:16.000;4.28;0.30;735;0.0;37.0;0.00
02:28:24.000;4.28;0.30;735;0.0;37.0;0.00
02:28:32.000;4.28;0.30;736;0.0;37.0;0.00
02:28:40.000;4.28;0.30;737;0.0;37.0;0.00
02:28:48.000;4.28;0.30;737;0.0;37.0;0.00
02:28:56.000;4.28;0.30;738;0.0;37.0;0.00
02:29:04.000;4.27;0.31;739;0.0;37.0;0.00
02:29:12.000;4.27;0.30;739;0.0;37.0;0.00
02:29:20.000;4.27;0.31;740;0.0;37.0;0.00
02:29:28.000;4.27;0.30;741;0.0;37.0;0.00
02:29:36.000;4.27;0.30;741;0.0;37.0;0.00
02:29:44.000;4.26;0.30;742;0.0;37.0;0.00
02:29:52.000;4.26;0.30;743;0.0;37.0;0.00
02:29:58.000;4.26;0.31;743;0.0;37.0;0.00